<?xml version="1.0" encoding="UTF-8"?>
<Bundle xmlns="http://hl7.org/fhir">
    <id value="17e2cad1-c3e3-4901-adb1-c35a0b82b883"/>
    <identifier>
        <system value="urn:oid:2.16.840.1.113883.2.9.2.120.4.4"/>
        <value value="c030702.TSTSMN63A01F205H.20220325112426.TSS1Tkju"/>
        <assigner>
            <display value="Regione Lazio"/>
        </assigner>
    </identifier>
    <type value="document"/>
    <timestamp value="2022-03-30T11:24:26+01:00"/>
    <entry>
        <fullUrl value="urn:uuid:26032a57-083a-4ddf-b019-e566ae02f740"/>
        <resource>
            <Composition>
                <id value="26032a57-083a-4ddf-b019-e566ae02f740"/>
                <language value="it-IT"/>
                <identifier>
                    <system value="urn:oid:2.16.840.1.113883.2.9.2.120.4.4"/>
                    <value value="c030702.TSTSMN63A01F205H.20220325112426.TSS1Tkju"/>
                    <assigner>
                        <display value="Regione Lazio"/>
                    </assigner>
                </identifier>
                <status value="final"/>
                <type>
                    <coding>
                        <system value="http://loinc.org"/>
                        <code value="11502-2"/>
                        <display value="Referto di laboratorio"/>
                    </coding>
                </type>
                <subject>
                    <reference value="urn:uuid:dc2b606f-3cf7-4711-a2ff-52da04b89e04"/>
                </subject>
                <encounter>
                    <reference value="urn:uuid:195a7abc-d109-404a-9dc7-ad2e80bafc8a"/>
                </encounter>
                <date value="2022-03-30T11:24:26+01:00"/>
                <author>
                    <reference value="urn:uuid:88868d3e-7ab1-4ee5-983e-b979c4971f5c"/>
                </author>
                <author>
                    <reference value="urn:uuid:84b2e517-abc2-4268-975d-b12fa8174d30"/>
                </author>
                <title value="REFERTO DI LABORATORIO"/>
                <confidentiality value="N"/>
                <attester>
                    <mode value="professional"/>
                    <party>
                        <reference value="urn:uuid:0bbabe57-7c43-4211-9e19-81fcec65686d"/>
                    </party>
                </attester>
                <attester>
                    <mode value="legal"/>
                    <time value="2022-03-25T11:00:00+01:00"/>
                    <party>
                        <reference value="urn:uuid:a199dc05-af73-44a0-a218-bda5dec557ce"/>
                    </party>
                </attester>
                <attester>
                    <mode value="professional"/>
                    <time value="2022-03-25T11:00:00+01:00"/>
                    <party>
                        <reference value="urn:uuid:13792187-4721-4309-a8a4-4a57ffb4e6a1"/>
                    </party>
                </attester>
                <custodian>
                    <reference value="urn:uuid:a59d2bf2-7d6c-49a5-9ceb-c3f165ebd20d"/>
                </custodian>
                <event>
                    <period>
                        <start value="2022-03-24T11:24:26+01:00"/>
                    </period>
                    <detail>
                        <reference value="urn:uuid:1b4b120e-0371-4878-b4c9-b69434e84c72"/>
                    </detail>
                </event>
                <section>
                    <title value="Esami delle Urine"/>
                    <code>
                        <coding>
                            <system value="http://loinc.org"/>
                            <code value="18729-4"/>
                            <display value="ESAMI DELLE URINE"/>
                        </coding>
                    </code>
                    <section>
                        <title value="Albumina nelle Urine"/>
                        <code>
                            <coding>
                                <system value="http://loinc.org"/>
                                <code value="14957-5"/>
                                <display value="Microalbumin Massa/Volume in Urine"/>
                            </coding>
                            <coding>
                                <system value="urn:oid:2.16.840.1.113883.2.9.2.30.6.11"/>
                                <code value="0090334.02"/>
                                <display value="XXX"/>
                            </coding>
                        </code>
                        <text>
                            <status value="generated"/>
                            <div xmlns="http://www.w3.org/1999/xhtml">
                                <ul>
                                    <li>
                                        <table id="nota1">
                                            <thead>
                                                <tr>
                                                    <th>
                                                        Esame
                                                    </th>
                                                    <th>
                                                        Metodo utilizzato per l'esame
                                                    </th>
                                                    <th>
                                                        Materiale utilizzato per l'esame
                                                    </th>
                                                    <th>
                                                        Risultato dell'esame
                                                    </th>
                                                    <th>
                                                        Commenti e note
                                                    </th>
                                                    <th>
                                                        Unità di Misura
                                                    </th>
                                                    <th>
                                                        Range di Riferimento
                                                    </th>
                                                    <th>
                                                        Criteri per il range di riferimento
                                                    </th>
                                                    <th>
                                                        Interpretazione
                                                    </th>
                                                    <th>
                                                        Allegati multimediali
                                                    </th>
                                                </tr>
                                            </thead>
                                            <tbody>
                                                <tr>
                                                    <td>
                                                        Microalbumina massa/volume in urine
                                                    </td>
                                                    <td/>
                                                    <td>
                                                        Urine
                                                    </td>
                                                    <td>
                                                        20
                                                    </td>
                                                    <td/>
                                                    <td>
                                                        mg/L
                                                    </td>
                                                    <td>
                                                        0 - 20
                                                    </td>
                                                    <td/>
                                                    <td>
                                                        N
                                                    </td>
                                                    <td/>
                                                </tr>
                                            </tbody>
                                        </table>
                                    </li>
                                </ul>
                            </div>
                        </text>
                        <entry>
                            <reference value="urn:uuid:5679723c-4fae-4ba7-9f09-5438a827bfda"/>
                        </entry>
                    </section>
                </section>
            </Composition>
        </resource>
    </entry>
    <entry>
        <fullUrl value="urn:uuid:dc2b606f-3cf7-4711-a2ff-52da04b89e04"/>
        <resource>
            <Patient>
                <id value="dc2b606f-3cf7-4711-a2ff-52da04b89e04"/>
                <extension url="http://hl7.org/fhir/StructureDefinition/patient-birthPlace">
                    <valueAddress>
                        <line value="Via voltri 3">
                            <extension url="http://hl7.org/fhir/StructureDefinition/iso21090-ADXP-censusTract">
                                <valueString value="058091"/>
                            </extension>
                        </line>
                        <city value="Roma"/>
                        <district value="RM"/>
                        <state value="120"/>
                        <country value="100"/>
                    </valueAddress>
                </extension>
                <identifier>
                    <system value="urn:oid:2.16.840.1.113883.2.9.4.3.2"/>
                    <value value="TKLEYP93Y27Z315J"/>
                    <assigner>
                        <display value="MEF"/>
                    </assigner>
                </identifier>
                <name>
                    <family value="Verdi"/>
                    <given value="Giuseppe"/>
                </name>
                <telecom>
                    <system value="email"/>
                    <value value="giuseppe.verdi@gmail.com"/>
                    <use value="home"/>
                </telecom>
                <telecom>
                    <system value="phone"/>
                    <value value="33224456"/>
                    <use value="mobile"/>
                </telecom>
                <gender value="male"/>
                <birthDate value="1993-06-19"/>
                <address>
                    <use value="home"/>
                    <line value="Via Aurora 12">
                        <extension url="http://hl7.org/fhir/StructureDefinition/iso21090-ADXP-censusTract">
                            <valueString value="058091"/>
                        </extension>
                    </line>
                    <city value="Roma"/>
                    <district value="RM"/>
                    <state value="120"/>
                    <postalCode value="00187"/>
                    <country value="100"/>
                </address>
                <address>
                    <use value="home"/>
                    <line value="Via Canevari 12B">
                        <extension url="http://hl7.org/fhir/StructureDefinition/iso21090-ADXP-censusTract">
                            <valueString value="058091"/>
                        </extension>
                    </line>
                    <city value="Roma"/>
                    <district value="RM"/>
                    <state value="120"/>
                    <postalCode value="00138"/>
                    <country value="100"/>
                </address>
            </Patient>
        </resource>
    </entry>
    <entry>
        <fullUrl value="urn:uuid:195a7abc-d109-404a-9dc7-ad2e80bafc8a"/>
        <resource>
            <Encounter>
                <id value="195a7abc-d109-404a-9dc7-ad2e80bafc8a"/>
                <status value="finished"/>
                <class>
                    <system value="http://terminology.hl7.org/CodeSystem/v3-ActCode"/>
                    <code value="AMB"/>
                    <display value="ambulatory"/>
                </class>
                <subject>
                    <reference value="urn:uuid:dc2b606f-3cf7-4711-a2ff-52da04b89e04"/>
                </subject>
                <basedOn>
                    <reference value="urn:uuid:1d4cbcd1-e0d3-49b6-92d8-1893da8d08e1"/>
                </basedOn>
                <participant>
                    <type>
                        <coding>
                            <system value="http://terminology.hl7.org/CodeSystem/v3-ParticipationType"/>
                            <code value="REF"/>
                        </coding>
                    </type>
                    <period>
                        <start value="2022-03-20T11:00:00+01:00"/>
                    </period>
                    <individual>
                        <reference value="urn:uuid:c20acec2-5d67-4c05-b35e-d528c35f9ed1"/>
                    </individual>
                </participant>
                <participant>
                    <individual>
                        <reference value="urn:uuid:83ef1c55-566b-4547-affd-f6d7b993a094"/>
                    </individual>
                </participant>
                <period>
                    <start value="2022-03-30T11:24:26+01:00"/>
                </period>
                <location>
                    <location>
                        <reference value="urn:uuid:6373bbff-d136-4cfe-a7bc-fab4bff2fc21"/>
                    </location>
                </location>
            </Encounter>
        </resource>
    </entry>
    <entry>
        <fullUrl value="urn:uuid:5837e9bf-8a2b-43c3-bec8-d68dbd7fa7fb"/>
        <resource>
            <Specimen>
                <id value="5837e9bf-8a2b-43c3-bec8-d68dbd7fa7fb"/>
                <type>
                    <coding>
                        <system value="urn:oid:2.16.840.1.113883.5.129"/>
                        <code value="UR"/>
                        <display value="Urine"/>
                    </coding>
                </type>
                <subject>
                    <reference value="urn:uuid:dc2b606f-3cf7-4711-a2ff-52da04b89e04"/>
                </subject>
            </Specimen>
        </resource>
    </entry>
    <entry>
        <fullUrl value="urn:uuid:c92e7441-a6ac-4a4e-9a0b-1c2ee6bfe7dd"/>
        <resource>
            <DocumentReference>
                <id value="c92e7441-a6ac-4a4e-9a0b-1c2ee6bfe7dd"/>
                <status value="current"/>
                <subject>
                    <reference value="urn:uuid:dc2b606f-3cf7-4711-a2ff-52da04b89e04"/>
                </subject>
                <author>
                    <reference value="urn:uuid:ab279a0b-320f-483b-9a5d-f1f7e8ceacb2"/>
                </author>
                <custodian>
                    <reference value="urn:uuid:a59d2bf2-7d6c-49a5-9ceb-c3f165ebd20d"/>
                </custodian>
                <content>
                    <attachment>
                        <title value="string"/>
                    </attachment>
                </content>
                <context>
                    <related>
                        <reference value="urn:uuid:26032a57-083a-4ddf-b019-e566ae02f740"/>
                    </related>
                </context>
            </DocumentReference>
        </resource>
    </entry>
    <entry>
        <fullUrl value="urn:uuid:88868d3e-7ab1-4ee5-983e-b979c4971f5c"/>
        <resource>
            <PractitionerRole>
                <id value="88868d3e-7ab1-4ee5-983e-b979c4971f5c"/>
                <practitioner>
                    <reference value="urn:uuid:ab279a0b-320f-483b-9a5d-f1f7e8ceacb2"/>
                </practitioner>
            </PractitionerRole>
        </resource>
    </entry>
    <entry>
        <fullUrl value="urn:uuid:ab279a0b-320f-483b-9a5d-f1f7e8ceacb2"/>
        <resource>
            <Practitioner>
                <id value="ab279a0b-320f-483b-9a5d-f1f7e8ceacb2"/>
                <identifier>
                    <system value="urn:oid:2.16.840.1.113883.2.9.4.3.2"/>
                    <value value="MTCORV58E63L294G"/>
                    <assigner>
                        <display value="MEF"/>
                    </assigner>
                </identifier>
                <name>
                    <family value="Cervone"/>
                    <given value="Matteo"/>
                    <prefix value="Dr"/>
                </name>
                <telecom>
                    <system value="email"/>
                    <value value="matteo.cervone@gmail.it"/>
                    <use value="home"/>
                </telecom>
                <telecom>
                    <system value="email"/>
                    <value value="matteo.cervone@pec.it"/>
                    <use value="work"/>
                </telecom>
                <telecom>
                    <system value="phone"/>
                    <value value="3478129873"/>
                    <use value="mobile"/>
                </telecom>
                <address>
                    <line value="Via Milano 7">
                        <extension url="http://hl7.org/fhir/StructureDefinition/iso21090-ADXP-censusTract">
                            <valueString value="058091"/>
                        </extension>
                    </line>
                    <city value="Roma"/>
                    <district value="RM"/>
                    <state value="120"/>
                    <postalCode value="00184"/>
                    <country value="100"/>
                </address>
            </Practitioner>
        </resource>
    </entry>
    <entry>
        <fullUrl value="urn:uuid:84b2e517-abc2-4268-975d-b12fa8174d30"/>
        <resource>
            <PractitionerRole>
                <id value="84b2e517-abc2-4268-975d-b12fa8174d30"/>
                <practitioner>
                    <reference value="urn:uuid:68740937-f732-4ff9-a2e4-bf502d2d125f"/>
                </practitioner>
            </PractitionerRole>
        </resource>
    </entry>
    <entry>
        <fullUrl value="urn:uuid:68740937-f732-4ff9-a2e4-bf502d2d125f"/>
        <resource>
            <Practitioner>
                <id value="68740937-f732-4ff9-a2e4-bf502d2d125f"/>
                <identifier>
                    <system value="urn:oid:2.16.840.1.113883.2.9.4.3.2"/>
                    <value value="FPSSBN85G54D398H"/>
                    <assigner>
                        <display value="MEF"/>
                    </assigner>
                </identifier>
                <name>
                    <family value="Mancusi"/>
                    <given value="Filippo"/>
                </name>
            </Practitioner>
        </resource>
    </entry>
    <entry>
        <fullUrl value="urn:uuid:a59d2bf2-7d6c-49a5-9ceb-c3f165ebd20d"/>
        <resource>
            <Organization>
                <id value="a59d2bf2-7d6c-49a5-9ceb-c3f165ebd20d"/>
                <identifier>
                    <system value="urn:oid:2.16.840.1.113883.2.9.4.1.2"/>
                    <value value="120148"/>
                    <assigner>
                        <display value="Ministero della Salute"/>
                    </assigner>
                </identifier>
                <name value="SAN RAFFAELE NOMENTANA"/>
                <telecom>
                    <system value="phone"/>
                    <value value=" 390 666 0581"/>
                    <use value="work"/>
                </telecom>
                <address>
                    <line value="Via Emilio Praga 39">
                        <extension url="http://hl7.org/fhir/StructureDefinition/iso21090-ADXP-censusTract">
                            <valueString value="058091"/>
                        </extension>
                    </line>
                    <city value="Roma"/>
                    <district value="RM"/>
                    <state value="120"/>
                    <postalCode value="00137"/>
                    <country value="100"/>
                </address>
            </Organization>
        </resource>
    </entry>
    <entry>
        <fullUrl value="urn:uuid:0bbabe57-7c43-4211-9e19-81fcec65686d"/>
        <resource>
            <Practitioner>
                <id value="0bbabe57-7c43-4211-9e19-81fcec65686d"/>
                <identifier>
                    <system value="urn:oid:2.16.840.1.113883.2.9.4.3.2"/>
                    <value value="MURRSI88Y67R012G"/>
                    <assigner>
                        <display value="MEF"/>
                    </assigner>
                </identifier>
                <name>
                    <family value="Rossi"/>
                    <given value="Maura"/>
                </name>
                <telecom>
                    <system value="phone"/>
                    <value value="062866794"/>
                    <use value="work"/>
                </telecom>
            </Practitioner>
        </resource>
    </entry>
    <entry>
        <fullUrl value="urn:uuid:a199dc05-af73-44a0-a218-bda5dec557ce"/>
        <resource>
            <PractitionerRole>
                <id value="a199dc05-af73-44a0-a218-bda5dec557ce"/>
                <practitioner>
                    <reference value="urn:uuid:b2ba9ea7-8098-4f7a-a2a5-c6a51a35c61c"/>
                </practitioner>
            </PractitionerRole>
        </resource>
    </entry>
    <entry>
        <fullUrl value="urn:uuid:b2ba9ea7-8098-4f7a-a2a5-c6a51a35c61c"/>
        <resource>
            <Practitioner>
                <id value="b2ba9ea7-8098-4f7a-a2a5-c6a51a35c61c"/>
                <identifier>
                    <system value="urn:oid:2.16.840.1.113883.2.9.4.3.2"/>
                    <value value="GPSDGK80E76C765V"/>
                    <assigner>
                        <display value="MEF"/>
                    </assigner>
                </identifier>
                <name>
                    <family value="Righi"/>
                    <given value="Federico"/>
                    <prefix value="Dttr."/>
                </name>
                <telecom>
                    <system value="email"/>
                    <value value="righi.federico@gmail.com"/>
                    <use value="home"/>
                </telecom>
                <telecom>
                    <system value="phone"/>
                    <value value="330987986"/>
                    <use value="mobile"/>
                </telecom>
                <address>
                    <line value="Via Corvetto 3">
                        <extension url="http://hl7.org/fhir/StructureDefinition/iso21090-ADXP-censusTract">
                            <valueString value="058091"/>
                        </extension>
                    </line>
                    <city value="Roma"/>
                    <district value="RM"/>
                    <state value="120"/>
                    <postalCode value="00164"/>
                    <country value="100"/>
                </address>
            </Practitioner>
        </resource>
    </entry>
    <entry>
        <fullUrl value="urn:uuid:13792187-4721-4309-a8a4-4a57ffb4e6a1"/>
        <resource>
            <PractitionerRole>
                <id value="13792187-4721-4309-a8a4-4a57ffb4e6a1"/>
                <practitioner>
                    <reference value="urn:uuid:852cec21-4ff9-4cea-b86d-00de92b46894"/>
                </practitioner>
            </PractitionerRole>
        </resource>
    </entry>
    <entry>
        <fullUrl value="urn:uuid:852cec21-4ff9-4cea-b86d-00de92b46894"/>
        <resource>
            <Practitioner>
                <id value="852cec21-4ff9-4cea-b86d-00de92b46894"/>
                <identifier>
                    <system value="urn:oid:2.16.840.1.113883.2.9.4.3.2"/>
                    <value value="RBTAMA67H99H467D"/>
                    <assigner>
                        <display value="MEF"/>
                    </assigner>
                </identifier>
                <name>
                    <family value="Rossi"/>
                    <given value="Roberta"/>
                </name>
                <telecom>
                    <system value="email"/>
                    <value value="maggi.roberta@gmail.com"/>
                    <use value="home"/>
                </telecom>
                <telecom>
                    <system value="phone"/>
                    <value value="22998276800"/>
                    <use value="home"/>
                </telecom>
                <address>
                    <line value="Via Corvetto 3">
                        <extension url="http://hl7.org/fhir/StructureDefinition/iso21090-ADXP-censusTract">
                            <valueString value="058091"/>
                        </extension>
                    </line>
                    <city value="Roma"/>
                    <district value="RM"/>
                    <state value="120"/>
                    <postalCode value="00164"/>
                    <country value="100"/>
                </address>
            </Practitioner>
        </resource>
    </entry>
    <entry>
        <fullUrl value="urn:uuid:c20acec2-5d67-4c05-b35e-d528c35f9ed1"/>
        <resource>
            <PractitionerRole>
                <id value="c20acec2-5d67-4c05-b35e-d528c35f9ed1"/>
                <practitioner>
                    <reference value="urn:uuid:f7fa317a-66ac-4adf-9199-9bfe1e2eaa21"/>
                </practitioner>
                <organization>
                    <reference value="urn:uuid:c1f46c0d-a0f9-41d7-8a33-15ffcf954354"/>
                </organization>
                <code>
                    <coding>
                        <system value="urn:oid:2.16.840.1.113883.2.9.5.1.88"/>
                        <code value="PRE"/>
                    </coding>
                </code>
            </PractitionerRole>
        </resource>
    </entry>
    <entry>
        <fullUrl value="urn:uuid:f7fa317a-66ac-4adf-9199-9bfe1e2eaa21"/>
        <resource>
            <Practitioner>
                <id value="f7fa317a-66ac-4adf-9199-9bfe1e2eaa21"/>
                <identifier>
                    <system value="urn:oid:2.16.840.1.113883.2.9.4.3.2"/>
                    <value value="STVMG77F45N079MF"/>
                    <assigner>
                        <display value="MEF"/>
                    </assigner>
                </identifier>
                <name>
                    <family value="Maggi"/>
                    <given value="Silvia"/>
                </name>
                <telecom>
                    <system value="email"/>
                    <value value="maggi.silvia@gmail.com"/>
                    <use value="home"/>
                </telecom>
                <address>
                    <line value="Via Vittorio Veneto 3">
                        <extension url="http://hl7.org/fhir/StructureDefinition/iso21090-ADXP-censusTract">
                            <valueString value="058091"/>
                        </extension>
                    </line>
                    <city value="Roma"/>
                    <district value="RM"/>
                    <state value="120"/>
                    <postalCode value="00187"/>
                    <country value="100"/>
                </address>
            </Practitioner>
        </resource>
    </entry>
    <entry>
        <fullUrl value="urn:uuid:c1f46c0d-a0f9-41d7-8a33-15ffcf954354"/>
        <resource>
            <Organization>
                <id value="c1f46c0d-a0f9-41d7-8a33-15ffcf954354"/>
                <identifier>
                    <system value="urn:oid:2.16.840.1.113883.2.9.4.1.2"/>
                    <value value="120148"/>
                    <assigner>
                        <display value="Ministero della Salute"/>
                    </assigner>
                </identifier>
                <name value="SAN RAFFAELE NOMENTANA"/>
                <telecom>
                    <system value="phone"/>
                    <value value=" 390 666 0581"/>
                    <use value="work"/>
                </telecom>
                <address>
                    <line value="Via Emilio Praga 39">
                        <extension url="http://hl7.org/fhir/StructureDefinition/iso21090-ADXP-censusTract">
                            <valueString value="058091"/>
                        </extension>
                    </line>
                    <city value="Roma"/>
                    <district value="RM"/>
                    <state value="120"/>
                    <postalCode value="00137"/>
                    <country value="100"/>
                </address>
            </Organization>
        </resource>
    </entry>
    <entry>
        <fullUrl value="urn:uuid:1d4cbcd1-e0d3-49b6-92d8-1893da8d08e1"/>
        <resource>
            <ServiceRequest>
                <id value="1d4cbcd1-e0d3-49b6-92d8-1893da8d08e1"/>
                <identifier>
                    <system value="urn:oid:2.16.840.1.113883.2.9.4.3.9"/>
                    <value value="[NRE]"/>
                    <assigner>
                        <display value="Ministero delle Finanze"/>
                    </assigner>
                </identifier>
                <status value="active"/>
                <intent value="order"/>
                <priority value="asap"/>
                <subject>
                    <reference value="urn:uuid:dc2b606f-3cf7-4711-a2ff-52da04b89e04"/>
                </subject>
                <encounter>
                    <reference value="urn:uuid:195a7abc-d109-404a-9dc7-ad2e80bafc8a"/>
                </encounter>
            </ServiceRequest>
        </resource>
    </entry>
    <entry>
        <fullUrl value="urn:uuid:1b4b120e-0371-4878-b4c9-b69434e84c72"/>
        <resource>
            <PractitionerRole>
                <id value="1b4b120e-0371-4878-b4c9-b69434e84c72"/>
                <practitioner>
                    <reference value="urn:uuid:c1bb11b3-87e6-4682-a214-10975487b643"/>
                </practitioner>
                <organization>
                    <reference value="urn:uuid:508f4b29-09ca-4c94-8343-657f1923303a"/>
                </organization>
            </PractitionerRole>
        </resource>
    </entry>
    <entry>
        <fullUrl value="urn:uuid:c1bb11b3-87e6-4682-a214-10975487b643"/>
        <resource>
            <Practitioner>
                <id value="c1bb11b3-87e6-4682-a214-10975487b643"/>
                <identifier>
                    <system value="urn:oid:2.16.840.1.113883.2.9.4.3.2"/>
                    <value value="MRSSIO79H59Z317K"/>
                    <assigner>
                        <display value="MEF"/>
                    </assigner>
                </identifier>
                <name>
                    <family value="Rossi"/>
                    <given value="Mario"/>
                </name>
            </Practitioner>
        </resource>
    </entry>
    <entry>
        <fullUrl value="urn:uuid:508f4b29-09ca-4c94-8343-657f1923303a"/>
        <resource>
            <Organization>
                <id value="508f4b29-09ca-4c94-8343-657f1923303a"/>
                <identifier>
                    <system value="urn:oid:2.16.840.1.113883.2.9.4.1.3"/>
                    <value value="327700102"/>
                    <assigner>
                        <display value="Ministero della Salute"/>
                    </assigner>
                </identifier>
                <name value="Nuovo Ospedale S.Agostino (MO)"/>
                <partOf>
                    <reference value="urn:uuid:206fa15d-51ae-4f3d-b8d0-71ee6290ff52"/>
                </partOf>
            </Organization>
        </resource>
    </entry>
    <entry>
        <fullUrl value="urn:uuid:206fa15d-51ae-4f3d-b8d0-71ee6290ff52"/>
        <resource>
            <Organization>
                <id value="206fa15d-51ae-4f3d-b8d0-71ee6290ff52"/>
                <identifier>
                    <system value="urn:oid:2.16.840.1.113883.2.9.4.1.1"/>
                    <value value="080105"/>
                    <assigner>
                        <display value="Ministero della Salute"/>
                    </assigner>
                </identifier>
            </Organization>
        </resource>
    </entry>
    <entry>
        <fullUrl value="urn:uuid:83ef1c55-566b-4547-affd-f6d7b993a094"/>
        <resource>
            <PractitionerRole>
                <id value="83ef1c55-566b-4547-affd-f6d7b993a094"/>
                <practitioner>
                    <reference value="urn:uuid:1a3064fd-9658-47f1-98f3-3f368761a9da"/>
                </practitioner>
            </PractitionerRole>
        </resource>
    </entry>
    <entry>
        <fullUrl value="urn:uuid:1a3064fd-9658-47f1-98f3-3f368761a9da"/>
        <resource>
            <Practitioner>
                <id value="1a3064fd-9658-47f1-98f3-3f368761a9da"/>
                <identifier>
                    <system value="urn:oid:2.16.840.1.113883.2.9.4.3.2"/>
                    <value value="SVATPR85Y37T079B"/>
                    <assigner>
                        <display value="MEF"/>
                    </assigner>
                </identifier>
                <name>
                    <family value="Turri"/>
                    <given value="Silvia"/>
                </name>
            </Practitioner>
        </resource>
    </entry>
    <entry>
        <fullUrl value="urn:uuid:6373bbff-d136-4cfe-a7bc-fab4bff2fc21"/>
        <resource>
            <Location>
                <id value="6373bbff-d136-4cfe-a7bc-fab4bff2fc21"/>
                <identifier>
                    <system value="urn:oid:2.16.840.1.113883.2.9.4.1.6"/>
                    <value value="XXX"/>
                    <assigner>
                        <display value="Ministero della Salute"/>
                    </assigner>
                </identifier>
                <managingOrganization>
                    <reference value="urn:uuid:0a0cfca8-f1d3-4ed5-8b04-0d6cdcee3a17"/>
                </managingOrganization>
            </Location>
        </resource>
    </entry>
    <entry>
        <fullUrl value="urn:uuid:0a0cfca8-f1d3-4ed5-8b04-0d6cdcee3a17"/>
        <resource>
            <Organization>
                <id value="0a0cfca8-f1d3-4ed5-8b04-0d6cdcee3a17"/>
                <identifier>
                    <system value="urn:oid:2.16.840.1.113883.2.9.4.1.2"/>
                    <value value="XXX"/>
                    <assigner>
                        <display value="Ministero della Salute"/>
                    </assigner>
                </identifier>
                <name value="[nome_presidio]"/>
                <telecom>
                    <system value="phone"/>
                    <value value="0115678965"/>
                    <use value="work"/>
                </telecom>
                <partOf>
                    <reference value="urn:uuid:d5f71fc0-6075-4fed-ad99-b3c609d27f6b"/>
                </partOf>
            </Organization>
        </resource>
    </entry>
    <entry>
        <fullUrl value="urn:uuid:d5f71fc0-6075-4fed-ad99-b3c609d27f6b"/>
        <resource>
            <Organization>
                <id value="d5f71fc0-6075-4fed-ad99-b3c609d27f6b"/>
                <identifier>
                    <system value="urn:oid:2.16.840.1.113883.2.9.4.1.1"/>
                    <value value="XXX"/>
                    <assigner>
                        <display value="Ministero della Salute"/>
                    </assigner>
                </identifier>
            </Organization>
        </resource>
    </entry>
    <entry>
        <fullUrl value="urn:uuid:5679723c-4fae-4ba7-9f09-5438a827bfda"/>
        <resource>
            <DiagnosticReport>
                <id value="5679723c-4fae-4ba7-9f09-5438a827bfda"/>
                <status value="registered"/>
                <code>
                    <coding>
                        <system value="http://loinc.org"/>
                        <code value="14957-5"/>
                        <display value="Microalbumin Massa/Volume in Urine"/>
                    </coding>
                </code>
                <subject>
                    <reference value="urn:uuid:dc2b606f-3cf7-4711-a2ff-52da04b89e04"/>
                </subject>
                <encounter>
                    <reference value="urn:uuid:195a7abc-d109-404a-9dc7-ad2e80bafc8a"/>
                </encounter>
                <specimen>
                    <reference value="urn:uuid:5837e9bf-8a2b-43c3-bec8-d68dbd7fa7fb"/>
                </specimen>
                <result>
                    <reference value="urn:uuid:763f7902-8103-4d10-8bd1-546a726d43ee"/>
                </result>
            </DiagnosticReport>
        </resource>
    </entry>
    <entry>
        <fullUrl value="urn:uuid:763f7902-8103-4d10-8bd1-546a726d43ee"/>
        <resource>
            <Observation>
                <id value="763f7902-8103-4d10-8bd1-546a726d43ee"/>
                <status value="final"/>
                <code>
                    <coding>
                        <system value="http://loinc.org"/>
                        <code value="14957-5"/>
                        <display value="Microalbumin Massa/Volume in Urine"/>
                    </coding>
                    <coding>
                        <system value="urn:oid:2.16.840.1.113883.2.9.2.30.6.11"/>
                        <code value="0090334.02"/>
                        <display value="Albumina nelle urine"/>
                    </coding>
                </code>
                <subject>
                    <reference value="urn:uuid:dc2b606f-3cf7-4711-a2ff-52da04b89e04"/>
                </subject>
                <encounter>
                    <reference value="urn:uuid:195a7abc-d109-404a-9dc7-ad2e80bafc8a"/>
                </encounter>
                <effectiveDateTime value="2022-03-30T11:24:26+01:00"/>
                <valueQuantity>
                    <value value="16"/>
                    <unit value="mg/L"/>
                </valueQuantity>
                <interpretation>
                    <coding>
                        <system value="urn:oid:2.16.840.1.113883.5.83"/>
                        <code value="N"/>
                        <display value="Normal"/>
                    </coding>
                </interpretation>
                <specimen>
                    <reference value="urn:uuid:5837e9bf-8a2b-43c3-bec8-d68dbd7fa7fb"/>
                </specimen>
                <referenceRange>
                    <low>
                        <value value="0"/>
                        <unit value="mg/L"/>
                    </low>
                    <high>
                        <value value="20"/>
                        <unit value="mg/L"/>
                    </high>
                    <type>
                        <coding>
                            <system value="urn:oid:2.16.840.1.113883.5.83"/>
                            <code value="N"/>
                            <display value="Normal"/>
                        </coding>
                    </type>
                </referenceRange>
            </Observation>
        </resource>
    </entry>
</Bundle>