{
	"resourceType": "Bundle",
	"id": "17e2cad1-c3e3-4901-adb1-c35a0b82b883",
	"identifier": {
		"system": "urn:oid:2.16.840.1.113883.2.9.2.120.4.4",
		"value": "c030702.TSTSMN63A01F205H.20220325112426.TSS1Tkju",
		"assigner": {
			"display": "Regione Lazio"
		}
	},
	"type": "document",
	"timestamp": "2022-03-30T11:24:26+01:00",
	"entry": [
		{
			"fullUrl": "urn:uuid:26032a57-083a-4ddf-b019-e566ae02f740",
			"resource": {
				"resourceType": "Composition",
				"id": "26032a57-083a-4ddf-b019-e566ae02f740",
				"language": "it-IT",
				"identifier": {
					"system": "urn:oid:2.16.840.1.113883.2.9.2.120.4.4",
					"value": "c030702.TSTSMN63A01F205H.20220325112426.TSS1Tkju",
					"assigner": {
						"display": "Regione Lazio"
					}
				},
				"status": "final",
				"type": {
					"coding": [
						{
							"system": "http://loinc.org",
							"code": "11502-2",
							"display": "Referto di laboratorio"
						}
					]
				},
				"subject": {
					"reference": "urn:uuid:dc2b606f-3cf7-4711-a2ff-52da04b89e04"
				},
				"encounter": {
					"reference": "urn:uuid:195a7abc-d109-404a-9dc7-ad2e80bafc8a"
				},
				"date": "2022-03-30T11:24:26+01:00",
				"author": [
					{
						"reference": "urn:uuid:88868d3e-7ab1-4ee5-983e-b979c4971f5c"
					},
					{
						"reference": "urn:uuid:84b2e517-abc2-4268-975d-b12fa8174d30"
					}
				],
				"title": "REFERTO DI LABORATORIO",
				"confidentiality": "N",
				"attester": [
					{
						"mode": "professional",
						"party": {
							"reference": "urn:uuid:0bbabe57-7c43-4211-9e19-81fcec65686d"
						}
					},
					{
						"mode": "legal",
						"time": "2022-03-25T11:00:00+01:00",
						"party": {
							"reference": "urn:uuid:a199dc05-af73-44a0-a218-bda5dec557ce"
						}
					},
					{
						"mode": "professional",
						"time": "2022-03-25T11:00:00+01:00",
						"party": {
							"reference": "urn:uuid:13792187-4721-4309-a8a4-4a57ffb4e6a1"
						}
					}
				],
				"custodian": {
					"reference": "urn:uuid:a59d2bf2-7d6c-49a5-9ceb-c3f165ebd20d"
				},
				"event": [
					{
						"period": {
							"start": "2022-03-24T11:24:26+01:00"
						},
						"detail": [
							{
								"reference": "urn:uuid:1b4b120e-0371-4878-b4c9-b69434e84c72"
							}
						]
					}
				],
				"section": [
					{
						"title": "Esami delle Urine",
						"code": {
							"coding": [
								{
									"system": "http://loinc.org",
									"code": "18729-4",
									"display": "ESAMI DELLE URINE"
								}
							]
						},
						"section": [
							{
								"title": "Albumina nelle Urine",
								"code": {
									"coding": [
										{
											"system": "http://loinc.org",
											"code": "14957-5",
											"display": "Microalbumin Massa/Volume in Urine"
										},
										{
											"system": "urn:oid:2.16.840.1.113883.2.9.2.30.6.11",
											"code": "0090334.02",
											"display": "XXX"
										}
									]
								},
								"text": {
									"status": "generated",
									"div": "<div xmlns=\"http://www.w3.org/1999/xhtml\"><ul><li><table id=\"nota1\"><thead><tr><th>Esame</th><th>Metodo utilizzato per l'esame</th><th>Materiale utilizzato per l'esame</th><th>Risultato dell'esame</th><th>Commenti e note</th><th>Unità di Misura</th><th>Range di Riferimento</th><th>Criteri per il range di riferimento</th><th>Interpretazione</th><th>Allegati multimediali</th></tr></thead><tbody><tr><td>Microalbumina massa/volume in urine</td><td/><td>Urine</td><td>20</td><td/><td>mg/L</td><td> 0 - 20 </td><td/><td>N</td><td/></tr></tbody></table></li></ul></div>"
								},
								"entry": [
									{
										"reference": "urn:uuid:5679723c-4fae-4ba7-9f09-5438a827bfda"
									}
								]
							}
						]
					}
				]
			}
		},
		{
			"fullUrl": "urn:uuid:dc2b606f-3cf7-4711-a2ff-52da04b89e04",
			"resource": {
				"resourceType": "Patient",
				"id": "dc2b606f-3cf7-4711-a2ff-52da04b89e04",
				"extension": [
					{
						"url": "http://hl7.org/fhir/StructureDefinition/patient-birthPlace",
						"valueAddress": {
							"line": [
								"Via voltri 3"
							],
							"_line": [
								{
									"extension": [
										{
											"url": "http://hl7.org/fhir/StructureDefinition/iso21090-ADXP-censusTract",
											"valueString": "058091"
										}
									]
								}
							],
							"city": "Roma",
							"district": "RM",
							"state": "120",
							"country": "100"
						}
					}
				],
				"identifier": [
					{
						"system": "urn:oid:2.16.840.1.113883.2.9.4.3.2",
						"value": "TKLEYP93Y27Z315J",
						"assigner": {
							"display": "MEF"
						}
					}
				],
				"name": [
					{
						"family": "Verdi",
						"given": [
							"Giuseppe"
						]
					}
				],
				"telecom": [
					{
						"system": "email",
						"value": "giuseppe.verdi@gmail.com",
						"use": "home"
					},
					{
						"system": "phone",
						"value": "33224456",
						"use": "mobile"
					}
				],
				"gender": "male",
				"birthDate": "1993-06-19",
				"address": [
					{
						"use": "home",
						"line": [
							"Via Aurora 12"
						],
						"_line": [
							{
								"extension": [
									{
										"url": "http://hl7.org/fhir/StructureDefinition/iso21090-ADXP-censusTract",
										"valueString": "058091"
									}
								]
							}
						],
						"city": "Roma",
						"district": "RM",
						"state": "120",
						"postalCode": "00187",
						"country": "100"
					},
					{
						"use": "home",
						"line": [
							"Via Canevari 12B"
						],
						"_line": [
							{
								"extension": [
									{
										"url": "http://hl7.org/fhir/StructureDefinition/iso21090-ADXP-censusTract",
										"valueString": "058091"
									}
								]
							}
						],
						"city": "Roma",
						"district": "RM",
						"state": "120",
						"postalCode": "00138",
						"country": "100"
					}
				]
			}
		},
		{
			"fullUrl": "urn:uuid:195a7abc-d109-404a-9dc7-ad2e80bafc8a",
			"resource": {
				"resourceType": "Encounter",
				"id": "195a7abc-d109-404a-9dc7-ad2e80bafc8a",
				"status": "finished",
				"class": {
					"system": "http://terminology.hl7.org/CodeSystem/v3-ActCode",
					"code": "AMB",
					"display": "ambulatory"
				},
				"subject": {
					"reference": "urn:uuid:dc2b606f-3cf7-4711-a2ff-52da04b89e04"
				},
				"basedOn": [
					{
						"reference": "urn:uuid:1d4cbcd1-e0d3-49b6-92d8-1893da8d08e1"
					}
				],
				"participant": [
					{
						"type": [
							{
								"coding": [
									{
										"system": "http://terminology.hl7.org/CodeSystem/v3-ParticipationType",
										"code": "REF"
									}
								]
							}
						],
						"period": {
							"start": "2022-03-20T11:00:00+01:00"
						},
						"individual": {
							"reference": "urn:uuid:c20acec2-5d67-4c05-b35e-d528c35f9ed1"
						}
					},
					{
						"individual": {
							"reference": "urn:uuid:83ef1c55-566b-4547-affd-f6d7b993a094"
						}
					}
				],
				"period": {
					"start": "2022-03-30T11:24:26+01:00"
				},
				"location": [
					{
						"location": {
							"reference": "urn:uuid:6373bbff-d136-4cfe-a7bc-fab4bff2fc21"
						}
					}
				]
			}
		},
		{
			"fullUrl": "urn:uuid:5837e9bf-8a2b-43c3-bec8-d68dbd7fa7fb",
			"resource": {
				"resourceType": "Specimen",
				"id": "5837e9bf-8a2b-43c3-bec8-d68dbd7fa7fb",
				"type": {
					"coding": [
						{
							"system": "urn:oid:2.16.840.1.113883.5.129",
							"code": "UR",
							"display": "Urine"
						}
					]
				},
				"subject": {
					"reference": "urn:uuid:dc2b606f-3cf7-4711-a2ff-52da04b89e04"
				}
			}
		},
		{
			"fullUrl": "urn:uuid:c92e7441-a6ac-4a4e-9a0b-1c2ee6bfe7dd",
			"resource": {
				"resourceType": "DocumentReference",
				"id": "c92e7441-a6ac-4a4e-9a0b-1c2ee6bfe7dd",
				"status": "current",
				"subject": {
					"reference": "urn:uuid:dc2b606f-3cf7-4711-a2ff-52da04b89e04"
				},
				"author": [
					{
						"reference": "urn:uuid:ab279a0b-320f-483b-9a5d-f1f7e8ceacb2"
					}
				],
				"custodian": {
					"reference": "urn:uuid:a59d2bf2-7d6c-49a5-9ceb-c3f165ebd20d"
				},
				"content": [
					{
						"attachment": {
							"title": "string"
						}
					}
				],
				"context": {
					"related": [
						{
							"reference": "urn:uuid:26032a57-083a-4ddf-b019-e566ae02f740"
						}
					]
				}
			}
		},
		{
			"fullUrl": "urn:uuid:88868d3e-7ab1-4ee5-983e-b979c4971f5c",
			"resource": {
				"resourceType": "PractitionerRole",
				"id": "88868d3e-7ab1-4ee5-983e-b979c4971f5c",
				"practitioner": {
					"reference": "urn:uuid:ab279a0b-320f-483b-9a5d-f1f7e8ceacb2"
				}
			}
		},
		{
			"fullUrl": "urn:uuid:ab279a0b-320f-483b-9a5d-f1f7e8ceacb2",
			"resource": {
				"resourceType": "Practitioner",
				"id": "ab279a0b-320f-483b-9a5d-f1f7e8ceacb2",
				"identifier": [
					{
						"system": "urn:oid:2.16.840.1.113883.2.9.4.3.2",
						"value": "MTCORV58E63L294G",
						"assigner": {
							"display": "MEF"
						}
					}
				],
				"name": [
					{
						"family": "Cervone",
						"given": [
							"Matteo"
						],
						"prefix": [
							"Dr"
						]
					}
				],
				"telecom": [
					{
						"system": "email",
						"value": "matteo.cervone@gmail.it",
						"use": "home"
					},
					{
						"system": "email",
						"value": "matteo.cervone@pec.it",
						"use": "work"
					},
					{
						"system": "phone",
						"value": "3478129873",
						"use": "mobile"
					}
				],
				"address": [
					{
						"line": [
							"Via Milano 7"
						],
						"_line": [
							{
								"extension": [
									{
										"url": "http://hl7.org/fhir/StructureDefinition/iso21090-ADXP-censusTract",
										"valueString": "058091"
									}
								]
							}
						],
						"city": "Roma",
						"district": "RM",
						"state": "120",
						"postalCode": "00184",
						"country": "100"
					}
				]
			}
		},
		{
			"fullUrl": "urn:uuid:84b2e517-abc2-4268-975d-b12fa8174d30",
			"resource": {
				"resourceType": "PractitionerRole",
				"id": "84b2e517-abc2-4268-975d-b12fa8174d30",
				"practitioner": {
					"reference": "urn:uuid:68740937-f732-4ff9-a2e4-bf502d2d125f"
				}
			}
		},
		{
			"fullUrl": "urn:uuid:68740937-f732-4ff9-a2e4-bf502d2d125f",
			"resource": {
				"resourceType": "Practitioner",
				"id": "68740937-f732-4ff9-a2e4-bf502d2d125f",
				"identifier": [
					{
						"system": "urn:oid:2.16.840.1.113883.2.9.4.3.2",
						"value": "FPSSBN85G54D398H",
						"assigner": {
							"display": "MEF"
						}
					}
				],
				"name": [
					{
						"family": "Mancusi",
						"given": [
							"Filippo"
						]
					}
				]
			}
		},
		{
			"fullUrl": "urn:uuid:a59d2bf2-7d6c-49a5-9ceb-c3f165ebd20d",
			"resource": {
				"resourceType": "Organization",
				"id": "a59d2bf2-7d6c-49a5-9ceb-c3f165ebd20d",
				"identifier": [
					{
						"system": "urn:oid:2.16.840.1.113883.2.9.4.1.2",
						"value": "120148",
						"assigner": {
							"display": "Ministero della Salute"
						}
					}
				],
				"name": "SAN RAFFAELE NOMENTANA",
				"telecom": [
					{
						"system": "phone",
						"value": " 390 666 0581",
						"use": "work"
					}
				],
				"address": [
					{
						"line": [
							"Via Emilio Praga 39"
						],
						"_line": [
							{
								"extension": [
									{
										"url": "http://hl7.org/fhir/StructureDefinition/iso21090-ADXP-censusTract",
										"valueString": "058091"
									}
								]
							}
						],
						"city": "Roma",
						"district": "RM",
						"state": "120",
						"postalCode": "00137",
						"country": "100"
					}
				]
			}
		},
		{
			"fullUrl": "urn:uuid:0bbabe57-7c43-4211-9e19-81fcec65686d",
			"resource": {
				"resourceType": "Practitioner",
				"id": "0bbabe57-7c43-4211-9e19-81fcec65686d",
				"identifier": [
					{
						"system": "urn:oid:2.16.840.1.113883.2.9.4.3.2",
						"value": "MURRSI88Y67R012G",
						"assigner": {
							"display": "MEF"
						}
					}
				],
				"name": [
					{
						"family": "Rossi",
						"given": [
							"Maura"
						]
					}
				],
				"telecom": [
					{
						"system": "phone",
						"value": "062866794",
						"use": "work"
					}
				]
			}
		},
		{
			"fullUrl": "urn:uuid:a199dc05-af73-44a0-a218-bda5dec557ce",
			"resource": {
				"resourceType": "PractitionerRole",
				"id": "a199dc05-af73-44a0-a218-bda5dec557ce",
				"practitioner": {
					"reference": "urn:uuid:b2ba9ea7-8098-4f7a-a2a5-c6a51a35c61c"
				}
			}
		},
		{
			"fullUrl": "urn:uuid:b2ba9ea7-8098-4f7a-a2a5-c6a51a35c61c",
			"resource": {
				"resourceType": "Practitioner",
				"id": "b2ba9ea7-8098-4f7a-a2a5-c6a51a35c61c",
				"identifier": [
					{
						"system": "urn:oid:2.16.840.1.113883.2.9.4.3.2",
						"value": "GPSDGK80E76C765V",
						"assigner": {
							"display": "MEF"
						}
					}
				],
				"name": [
					{
						"family": "Righi",
						"given": [
							"Federico"
						],
						"prefix": [
							"Dttr."
						]
					}
				],
				"telecom": [
					{
						"system": "email",
						"value": "righi.federico@gmail.com",
						"use": "home"
					},
					{
						"system": "phone",
						"value": "330987986",
						"use": "mobile"
					}
				],
				"address": [
					{
						"line": [
							"Via Corvetto 3"
						],
						"_line": [
							{
								"extension": [
									{
										"url": "http://hl7.org/fhir/StructureDefinition/iso21090-ADXP-censusTract",
										"valueString": "058091"
									}
								]
							}
						],
						"city": "Roma",
						"district": "RM",
						"state": "120",
						"postalCode": "00164",
						"country": "100"
					}
				]
			}
		},
		{
			"fullUrl": "urn:uuid:13792187-4721-4309-a8a4-4a57ffb4e6a1",
			"resource": {
				"resourceType": "PractitionerRole",
				"id": "13792187-4721-4309-a8a4-4a57ffb4e6a1",
				"practitioner": {
					"reference": "urn:uuid:852cec21-4ff9-4cea-b86d-00de92b46894"
				}
			}
		},
		{
			"fullUrl": "urn:uuid:852cec21-4ff9-4cea-b86d-00de92b46894",
			"resource": {
				"resourceType": "Practitioner",
				"id": "852cec21-4ff9-4cea-b86d-00de92b46894",
				"identifier": [
					{
						"system": "urn:oid:2.16.840.1.113883.2.9.4.3.2",
						"value": "RBTAMA67H99H467D",
						"assigner": {
							"display": "MEF"
						}
					}
				],
				"name": [
					{
						"family": "Rossi",
						"given": [
							"Roberta"
						]
					}
				],
				"telecom": [
					{
						"system": "email",
						"value": "maggi.roberta@gmail.com",
						"use": "home"
					},
					{
						"system": "phone",
						"value": "22998276800",
						"use": "home"
					}
				],
				"address": [
					{
						"line": [
							"Via Corvetto 3"
						],
						"_line": [
							{
								"extension": [
									{
										"url": "http://hl7.org/fhir/StructureDefinition/iso21090-ADXP-censusTract",
										"valueString": "058091"
									}
								]
							}
						],
						"city": "Roma",
						"district": "RM",
						"state": "120",
						"postalCode": "00164",
						"country": "100"
					}
				]
			}
		},
		{
			"fullUrl": "urn:uuid:c20acec2-5d67-4c05-b35e-d528c35f9ed1",
			"resource": {
				"resourceType": "PractitionerRole",
				"id": "c20acec2-5d67-4c05-b35e-d528c35f9ed1",
				"practitioner": {
					"reference": "urn:uuid:f7fa317a-66ac-4adf-9199-9bfe1e2eaa21"
				},
				"organization": {
					"reference": "urn:uuid:c1f46c0d-a0f9-41d7-8a33-15ffcf954354"
				},
				"code": [
					{
						"coding": [
							{
								"system": "urn:oid:2.16.840.1.113883.2.9.5.1.88",
								"code": "PRE"
							}
						]
					}
				]
			}
		},
		{
			"fullUrl": "urn:uuid:f7fa317a-66ac-4adf-9199-9bfe1e2eaa21",
			"resource": {
				"resourceType": "Practitioner",
				"id": "f7fa317a-66ac-4adf-9199-9bfe1e2eaa21",
				"identifier": [
					{
						"system": "urn:oid:2.16.840.1.113883.2.9.4.3.2",
						"value": "STVMG77F45N079MF",
						"assigner": {
							"display": "MEF"
						}
					}
				],
				"name": [
					{
						"family": "Maggi",
						"given": [
							"Silvia"
						]
					}
				],
				"telecom": [
					{
						"system": "email",
						"value": "maggi.silvia@gmail.com",
						"use": "home"
					}
				],
				"address": [
					{
						"line": [
							"Via Vittorio Veneto 3"
						],
						"_line": [
							{
								"extension": [
									{
										"url": "http://hl7.org/fhir/StructureDefinition/iso21090-ADXP-censusTract",
										"valueString": "058091"
									}
								]
							}
						],
						"city": "Roma",
						"district": "RM",
						"state": "120",
						"postalCode": "00187",
						"country": "100"
					}
				]
			}
		},
		{
			"fullUrl": "urn:uuid:c1f46c0d-a0f9-41d7-8a33-15ffcf954354",
			"resource": {
				"resourceType": "Organization",
				"id": "c1f46c0d-a0f9-41d7-8a33-15ffcf954354",
				"identifier": [
					{
						"system": "urn:oid:2.16.840.1.113883.2.9.4.1.2",
						"value": "120148",
						"assigner": {
							"display": "Ministero della Salute"
						}
					}
				],
				"name": "SAN RAFFAELE NOMENTANA",
				"telecom": [
					{
						"system": "phone",
						"value": " 390 666 0581",
						"use": "work"
					}
				],
				"address": [
					{
						"line": [
							"Via Emilio Praga 39"
						],
						"_line": [
							{
								"extension": [
									{
										"url": "http://hl7.org/fhir/StructureDefinition/iso21090-ADXP-censusTract",
										"valueString": "058091"
									}
								]
							}
						],
						"city": "Roma",
						"district": "RM",
						"state": "120",
						"postalCode": "00137",
						"country": "100"
					}
				]
			}
		},
		{
			"fullUrl": "urn:uuid:1d4cbcd1-e0d3-49b6-92d8-1893da8d08e1",
			"resource": {
				"resourceType": "ServiceRequest",
				"id": "1d4cbcd1-e0d3-49b6-92d8-1893da8d08e1",
				"identifier": [
					{
						"system": "urn:oid:2.16.840.1.113883.2.9.4.3.9",
						"value": "[NRE]",
						"assigner": {
							"display": "Ministero delle Finanze"
						}
					}
				],
				"status": "active",
				"intent": "order",
				"priority": "asap",
				"subject": {
					"reference": "urn:uuid:dc2b606f-3cf7-4711-a2ff-52da04b89e04"
				},
				"encounter": {
					"reference": "urn:uuid:195a7abc-d109-404a-9dc7-ad2e80bafc8a"
				}
			}
		},
		{
			"fullUrl": "urn:uuid:1b4b120e-0371-4878-b4c9-b69434e84c72",
			"resource": {
				"resourceType": "PractitionerRole",
				"id": "1b4b120e-0371-4878-b4c9-b69434e84c72",
				"practitioner": {
					"reference": "urn:uuid:c1bb11b3-87e6-4682-a214-10975487b643"
				},
				"organization": {
					"reference": "urn:uuid:508f4b29-09ca-4c94-8343-657f1923303a"
				}
			}
		},
		{
			"fullUrl": "urn:uuid:c1bb11b3-87e6-4682-a214-10975487b643",
			"resource": {
				"resourceType": "Practitioner",
				"id": "c1bb11b3-87e6-4682-a214-10975487b643",
				"identifier": [
					{
						"system": "urn:oid:2.16.840.1.113883.2.9.4.3.2",
						"value": "MRSSIO79H59Z317K",
						"assigner": {
							"display": "MEF"
						}
					}
				],
				"name": [
					{
						"family": "Rossi",
						"given": [
							"Mario"
						]
					}
				]
			}
		},
		{
			"fullUrl": "urn:uuid:508f4b29-09ca-4c94-8343-657f1923303a",
			"resource": {
				"resourceType": "Organization",
				"id": "508f4b29-09ca-4c94-8343-657f1923303a",
				"identifier": [
					{
						"system": "urn:oid:2.16.840.1.113883.2.9.4.1.3",
						"value": "327700102",
						"assigner": {
							"display": "Ministero della Salute"
						}
					}
				],
				"name": "Nuovo Ospedale S.Agostino (MO)",
				"partOf": {
					"reference": "urn:uuid:206fa15d-51ae-4f3d-b8d0-71ee6290ff52"
				}
			}
		},
		{
			"fullUrl": "urn:uuid:206fa15d-51ae-4f3d-b8d0-71ee6290ff52",
			"resource": {
				"resourceType": "Organization",
				"id": "206fa15d-51ae-4f3d-b8d0-71ee6290ff52",
				"identifier": [
					{
						"system": "urn:oid:2.16.840.1.113883.2.9.4.1.1",
						"value": "080105",
						"assigner": {
							"display": "Ministero della Salute"
						}
					}
				]
			}
		},
		{
			"fullUrl": "urn:uuid:83ef1c55-566b-4547-affd-f6d7b993a094",
			"resource": {
				"resourceType": "PractitionerRole",
				"id": "83ef1c55-566b-4547-affd-f6d7b993a094",
				"practitioner": {
					"reference": "urn:uuid:1a3064fd-9658-47f1-98f3-3f368761a9da"
				}
			}
		},
		{
			"fullUrl": "urn:uuid:1a3064fd-9658-47f1-98f3-3f368761a9da",
			"resource": {
				"resourceType": "Practitioner",
				"id": "1a3064fd-9658-47f1-98f3-3f368761a9da",
				"identifier": [
					{
						"system": "urn:oid:2.16.840.1.113883.2.9.4.3.2",
						"value": "SVATPR85Y37T079B",
						"assigner": {
							"display": "MEF"
						}
					}
				],
				"name": [
					{
						"family": "Turri",
						"given": [
							"Silvia"
						]
					}
				]
			}
		},
		{
			"fullUrl": "urn:uuid:6373bbff-d136-4cfe-a7bc-fab4bff2fc21",
			"resource": {
				"resourceType": "Location",
				"id": "6373bbff-d136-4cfe-a7bc-fab4bff2fc21",
				"identifier": [
					{
						"system": "urn:oid:2.16.840.1.113883.2.9.4.1.6",
						"value": "XXX",
						"assigner": {
							"display": "Ministero della Salute"
						}
					}
				],
				"managingOrganization": {
					"reference": "urn:uuid:0a0cfca8-f1d3-4ed5-8b04-0d6cdcee3a17"
				}
			}
		},
		{
			"fullUrl": "urn:uuid:0a0cfca8-f1d3-4ed5-8b04-0d6cdcee3a17",
			"resource": {
				"resourceType": "Organization",
				"id": "0a0cfca8-f1d3-4ed5-8b04-0d6cdcee3a17",
				"identifier": [
					{
						"system": "urn:oid:2.16.840.1.113883.2.9.4.1.2",
						"value": "XXX",
						"assigner": {
							"display": "Ministero della Salute"
						}
					}
				],
				"name": "[nome_presidio]",
				"telecom": [
					{
						"system": "phone",
						"value": "0115678965",
						"use": "work"
					}
				],
				"partOf": {
					"reference": "urn:uuid:d5f71fc0-6075-4fed-ad99-b3c609d27f6b"
				}
			}
		},
		{
			"fullUrl": "urn:uuid:d5f71fc0-6075-4fed-ad99-b3c609d27f6b",
			"resource": {
				"resourceType": "Organization",
				"id": "d5f71fc0-6075-4fed-ad99-b3c609d27f6b",
				"identifier": [
					{
						"system": "urn:oid:2.16.840.1.113883.2.9.4.1.1",
						"value": "XXX",
						"assigner": {
							"display": "Ministero della Salute"
						}
					}
				]
			}
		},
		{
			"fullUrl": "urn:uuid:5679723c-4fae-4ba7-9f09-5438a827bfda",
			"resource": {
				"resourceType": "DiagnosticReport",
				"id": "5679723c-4fae-4ba7-9f09-5438a827bfda",
				"status": "registered",
				"code": {
					"coding": [
						{
							"system": "http://loinc.org",
							"code": "14957-5",
							"display": "Microalbumin Massa/Volume in Urine"
						}
					]
				},
				"subject": {
					"reference": "urn:uuid:dc2b606f-3cf7-4711-a2ff-52da04b89e04"
				},
				"encounter": {
					"reference": "urn:uuid:195a7abc-d109-404a-9dc7-ad2e80bafc8a"
				},
				"specimen": [
					{
						"reference": "urn:uuid:5837e9bf-8a2b-43c3-bec8-d68dbd7fa7fb"
					}
				],
				"result": [
					{
						"reference": "urn:uuid:763f7902-8103-4d10-8bd1-546a726d43ee"
					}
				]
			}
		},
		{
			"fullUrl": "urn:uuid:763f7902-8103-4d10-8bd1-546a726d43ee",
			"resource": {
				"resourceType": "Observation",
				"id": "763f7902-8103-4d10-8bd1-546a726d43ee",
				"status": "final",
				"code": {
					"coding": [
						{
							"system": "http://loinc.org",
							"code": "14957-5",
							"display": "Microalbumin Massa/Volume in Urine"
						},
						{
							"system": "urn:oid:2.16.840.1.113883.2.9.2.30.6.11",
							"code": "0090334.02",
							"display": "Albumina nelle urine"
						}
					]
				},
				"subject": {
					"reference": "urn:uuid:dc2b606f-3cf7-4711-a2ff-52da04b89e04"
				},
				"encounter": {
					"reference": "urn:uuid:195a7abc-d109-404a-9dc7-ad2e80bafc8a"
				},
				"effectiveDateTime": "2022-03-30T11:24:26+01:00",
				"valueQuantity": {
					"value": 16.00,
					"unit": "mg/L"
				},
				"interpretation": [
					{
						"coding": [
							{
								"system": "urn:oid:2.16.840.1.113883.5.83",
								"code": "N",
								"display": "Normal"
							}
						]
					}
				],
				"specimen": {
					"reference": "urn:uuid:5837e9bf-8a2b-43c3-bec8-d68dbd7fa7fb"
				},
				"referenceRange": [
					{
						"low": {
							"value": 0.00,
							"unit": "mg/L"
						},
						"high": {
							"value": 20.00,
							"unit": "mg/L"
						},
						"type": {
							"coding": [
								{
									"system": "urn:oid:2.16.840.1.113883.5.83",
									"code": "N",
									"display": "Normal"
								}
							]
						}
					}
				]
			}
		}
	]
}